<Bundle xmlns="http://hl7.org/fhir">
   <type value="transaction"></type>
   <entry>
      <fullUrl value="urn:uuid:bb73165c-c7b9-4342-8e28-531f07fa7735"></fullUrl>
      <resource>
         <Organization xmlns="http://hl7.org/fhir">
            <meta>
               <profile value="http://dsf.dev/fhir/StructureDefinition/organization"></profile>
               <tag>
                  <system value="http://dsf.dev/fhir/CodeSystem/read-access-tag"></system>
                  <code value="ALL"></code>
               </tag>
            </meta>
            <extension url="http://dsf.dev/fhir/StructureDefinition/extension-certificate-thumbprint">
               <valueString value="98f35274c936200ed96c3d2b9ea5b25930c058e2978a2181656dc79787b22d9ab8be6306bfd5ff8476e8d855fd7009e33d151d85c7ee61eb67e9c92ba39980d1"></valueString>
            </extension>
            <identifier>
               <system value="http://dsf.dev/sid/organization-identifier"></system>
               <value value="Test_ZARS"></value>
            </identifier>
            <active value="true"></active>
            <type>
               <coding>
                  <system value="http://dsf.dev/fhir/CodeSystem/organization-role"></system>
                  <code value="HRP"></code>
               </coding>
            </type>
            <name value="Test ZARS"></name>
            <endpoint>
               <reference value="urn:uuid:83dbe1ad-66ed-440a-8ed5-b90887e64b9b"></reference>
               <type value="Endpoint"></type>
            </endpoint>
         </Organization>
      </resource>
      <request>
         <method value="POST"></method>
         <url value="Organization"></url>
         <ifNoneExist value="identifier=http://dsf.dev/sid/organization-identifier|Test_ZARS"></ifNoneExist>
      </request>
   </entry>
   <entry>
      <fullUrl value="urn:uuid:0ab81184-ab79-4bff-b73f-d3034318cd9d"></fullUrl>
      <resource>
         <Organization xmlns="http://hl7.org/fhir">
            <meta>
               <profile value="http://dsf.dev/fhir/StructureDefinition/organization"></profile>
               <tag>
                  <system value="http://dsf.dev/fhir/CodeSystem/read-access-tag"></system>
                  <code value="ALL"></code>
               </tag>
            </meta>
            <extension url="http://dsf.dev/fhir/StructureDefinition/extension-certificate-thumbprint">
               <valueString value="42bbf66920919a2f61d717c9e280690f00f60361a8be83bd03a4a9461c3f005bb305fd479e96006864eeaac495a8af319db283ee25ce1f826125d3be767f20e1"></valueString>
            </extension>
            <identifier>
               <system value="http://dsf.dev/sid/organization-identifier"></system>
               <value value="Test_DIC_3"></value>
            </identifier>
            <active value="true"></active>
            <type>
               <coding>
                  <system value="http://dsf.dev/fhir/CodeSystem/organization-role"></system>
                  <code value="DIC"></code>
               </coding>
            </type>
            <name value="Test DIC 3"></name>
            <endpoint>
               <reference value="urn:uuid:185f6c53-f21f-4db4-934c-21ee323e16d8"></reference>
               <type value="Endpoint"></type>
            </endpoint>
         </Organization>
      </resource>
      <request>
         <method value="POST"></method>
         <url value="Organization"></url>
         <ifNoneExist value="identifier=http://dsf.dev/sid/organization-identifier|Test_DIC_3"></ifNoneExist>
      </request>
   </entry>
   <entry>
      <fullUrl value="urn:uuid:83dbe1ad-66ed-440a-8ed5-b90887e64b9b"></fullUrl>
      <resource>
         <Endpoint xmlns="http://hl7.org/fhir">
            <meta>
               <profile value="http://dsf.dev/fhir/StructureDefinition/endpoint"></profile>
               <tag>
                  <system value="http://dsf.dev/fhir/CodeSystem/read-access-tag"></system>
                  <code value="ALL"></code>
               </tag>
            </meta>
            <identifier>
               <system value="http://dsf.dev/sid/endpoint-identifier"></system>
               <value value="Test_ZARS_Endpoint"></value>
            </identifier>
            <status value="active"></status>
            <connectionType>
               <system value="http://terminology.hl7.org/CodeSystem/endpoint-connection-type"></system>
               <code value="hl7-fhir-rest"></code>
            </connectionType>
            <name value="Test ZARS Endpoint"></name>
            <managingOrganization>
               <reference value="urn:uuid:bb73165c-c7b9-4342-8e28-531f07fa7735"></reference>
               <type value="Organization"></type>
            </managingOrganization>
            <payloadType>
               <coding>
                  <system value="http://hl7.org/fhir/resource-types"></system>
                  <code value="Task"></code>
               </coding>
            </payloadType>
            <payloadMimeType value="application/fhir+json"></payloadMimeType>
            <payloadMimeType value="application/fhir+xml"></payloadMimeType>
            <address value="https://zars/fhir"></address>
         </Endpoint>
      </resource>
      <request>
         <method value="POST"></method>
         <url value="Endpoint"></url>
         <ifNoneExist value="identifier=http://dsf.dev/sid/endpoint-identifier|Test_ZARS_Endpoint"></ifNoneExist>
      </request>
   </entry>
   <entry>
      <fullUrl value="urn:uuid:185f6c53-f21f-4db4-934c-21ee323e16d8"></fullUrl>
      <resource>
         <Endpoint xmlns="http://hl7.org/fhir">
            <meta>
               <profile value="http://dsf.dev/fhir/StructureDefinition/endpoint"></profile>
               <tag>
                  <system value="http://dsf.dev/fhir/CodeSystem/read-access-tag"></system>
                  <code value="ALL"></code>
               </tag>
            </meta>
            <identifier>
               <system value="http://dsf.dev/sid/endpoint-identifier"></system>
               <value value="Test_DIC_3_Endpoint"></value>
            </identifier>
            <status value="active"></status>
            <connectionType>
               <system value="http://terminology.hl7.org/CodeSystem/endpoint-connection-type"></system>
               <code value="hl7-fhir-rest"></code>
            </connectionType>
            <name value="Test DIC 3 Endpoint"></name>
            <managingOrganization>
               <reference value="urn:uuid:0ab81184-ab79-4bff-b73f-d3034318cd9d"></reference>
               <type value="Organization"></type>
            </managingOrganization>
            <payloadType>
               <coding>
                  <system value="http://hl7.org/fhir/resource-types"></system>
                  <code value="Task"></code>
               </coding>
            </payloadType>
            <payloadMimeType value="application/fhir+json"></payloadMimeType>
            <payloadMimeType value="application/fhir+xml"></payloadMimeType>
            <address value="https://dic-3/fhir"></address>
         </Endpoint>
      </resource>
      <request>
         <method value="POST"></method>
         <url value="Endpoint"></url>
         <ifNoneExist value="identifier=http://dsf.dev/sid/endpoint-identifier|Test_DIC_3_Endpoint"></ifNoneExist>
      </request>
   </entry>
   <entry>
      <fullUrl value="urn:uuid:c4a7b553-01b1-4b50-bcb3-1467f5ae6791"></fullUrl>
      <resource>
         <Organization xmlns="http://hl7.org/fhir">
            <meta>
               <profile value="http://dsf.dev/fhir/StructureDefinition/organization-parent"></profile>
               <tag>
                  <system value="http://dsf.dev/fhir/CodeSystem/read-access-tag"></system>
                  <code value="ALL"></code>
               </tag>
            </meta>
            <identifier>
               <system value="http://dsf.dev/sid/organization-identifier"></system>
               <value value="medizininformatik-initiative.de"></value>
            </identifier>
            <active value="true"></active>
            <name value="Medizininformatik Initiative"></name>
         </Organization>
      </resource>
      <request>
         <method value="POST"></method>
         <url value="Organization"></url>
         <ifNoneExist value="identifier=http://dsf.dev/sid/organization-identifier|medizininformatik-initiative.de"></ifNoneExist>
      </request>
   </entry>
   <entry>
      <fullUrl value="urn:uuid:6da23450-e2e2-49e1-8591-02c553d53e3b"></fullUrl>
      <resource>
         <OrganizationAffiliation xmlns="http://hl7.org/fhir">
            <meta>
               <profile value="http://dsf.dev/fhir/StructureDefinition/organization-affiliation"></profile>
               <tag>
                  <system value="http://dsf.dev/fhir/CodeSystem/read-access-tag"></system>
                  <code value="ALL"></code>
               </tag>
            </meta>
            <active value="true"></active>
            <organization>
               <reference value="urn:uuid:c4a7b553-01b1-4b50-bcb3-1467f5ae6791"></reference>
               <type value="Organization"></type>
            </organization>
            <participatingOrganization>
               <reference value="urn:uuid:bb73165c-c7b9-4342-8e28-531f07fa7735"></reference>
               <type value="Organization"></type>
            </participatingOrganization>
            <code>
               <coding>
                  <system value="http://dsf.dev/fhir/CodeSystem/organization-role"></system>
                  <code value="HRP"></code>
               </coding>
            </code>
            <endpoint>
               <reference value="urn:uuid:83dbe1ad-66ed-440a-8ed5-b90887e64b9b"></reference>
               <type value="Endpoint"></type>
            </endpoint>
         </OrganizationAffiliation>
      </resource>
      <request>
         <method value="POST"></method>
         <url value="OrganizationAffiliation"></url>
         <ifNoneExist value="primary-organization:identifier=http://dsf.dev/sid/organization-identifier|medizininformatik-initiative.de&amp;participating-organization:identifier=http://dsf.dev/sid/organization-identifier|Test_ZARS"></ifNoneExist>
      </request>
   </entry>
   <entry>
      <fullUrl value="urn:uuid:dc294d28-cbe6-4826-8348-59a608790607"></fullUrl>
      <resource>
         <OrganizationAffiliation xmlns="http://hl7.org/fhir">
            <meta>
               <profile value="http://dsf.dev/fhir/StructureDefinition/organization-affiliation"></profile>
               <tag>
                  <system value="http://dsf.dev/fhir/CodeSystem/read-access-tag"></system>
                  <code value="ALL"></code>
               </tag>
            </meta>
            <active value="true"></active>
            <organization>
               <reference value="urn:uuid:c4a7b553-01b1-4b50-bcb3-1467f5ae6791"></reference>
               <type value="Organization"></type>
            </organization>
            <participatingOrganization>
               <reference value="urn:uuid:0ab81184-ab79-4bff-b73f-d3034318cd9d"></reference>
               <type value="Organization"></type>
            </participatingOrganization>
            <code>
               <coding>
                  <system value="http://dsf.dev/fhir/CodeSystem/organization-role"></system>
                  <code value="DIC"></code>
               </coding>
            </code>
            <endpoint>
               <reference value="urn:uuid:185f6c53-f21f-4db4-934c-21ee323e16d8"></reference>
               <type value="Endpoint"></type>
            </endpoint>
         </OrganizationAffiliation>
      </resource>
      <request>
         <method value="POST"></method>
         <url value="OrganizationAffiliation"></url>
         <ifNoneExist value="primary-organization:identifier=http://dsf.dev/sid/organization-identifier|medizininformatik-initiative.de&amp;participating-organization:identifier=http://dsf.dev/sid/organization-identifier|Test_DIC_3"></ifNoneExist>
      </request>
   </entry>
</Bundle>